Folder: Year2Projects/Physics/XRD

Note: README.md
# Year2Projects
Projects done in year 2 courses at Lund University, only original projects (even those wherein I did 70% of coding are disincluded)

File: S22m.dat
       q_A^-1             I
  1.093235e-02    1.041486e+06
  3.645566e-02    7.659840e+05
  6.197897e-02    2.000346e+05
  8.750227e-02    5.626727e+04
  1.130256e-01    1.947749e+04
  1.385489e-01    9.296874e+03
  1.640722e-01    6.260874e+03
  1.895955e-01    4.669809e+03
  2.151188e-01    3.474411e+03
  2.406421e-01    2.165708e+03
  2.661654e-01    1.295543e+03
  2.916887e-01    5.651284e+02
  3.172120e-01    3.394424e+02
  3.427353e-01    1.477146e+02
  3.682587e-01    8.326718e+01
  3.937820e-01    6.200679e+01
  4.193053e-01    5.209684e+01
  4.448286e-01    4.427235e+01
  4.703519e-01    4.020155e+01
  4.958752e-01    3.577422e+01
  5.213985e-01    3.311917e+01
  5.469218e-01    3.078767e+01
  5.724451e-01    2.921847e+01
  5.979684e-01    2.793364e+01
  6.234917e-01    2.552270e+01
  6.490150e-01    2.370427e+01
  6.745383e-01    2.330517e+01
  7.000616e-01    2.318847e+01
  7.255850e-01    2.187002e+01
  7.511083e-01    2.196192e+01
  7.766316e-01    2.061967e+01
  8.021549e-01    2.000474e+01
  8.276782e-01    1.952473e+01
  8.532015e-01    1.888476e+01
  8.787248e-01    1.859162e+01
  9.042481e-01    1.815917e+01
  9.297714e-01    1.705133e+01
  9.552947e-01    1.693314e+01
  9.808180e-01    1.642418e+01
  1.006341e+00    1.643266e+01
  1.031865e+00    1.577652e+01
  1.057388e+00    1.534754e+01
  1.082911e+00    1.532166e+01
  1.108435e+00    1.475132e+01
  1.133958e+00    1.451462e+01
  1.159481e+00    1.425006e+01
  1.185004e+00    1.415106e+01
  1.210528e+00    1.423571e+01
  1.236051e+00    1.374767e+01
  1.261574e+00    1.351561e+01
  1.287098e+00    1.271378e+01
  1.312621e+00    1.328515e+01
  1.338144e+00    1.257876e+01
  1.363668e+00    1.256796e+01
  1.389191e+00    1.235352e+01
  1.414714e+00    1.237557e+01
  1.440238e+00    1.201546e+01
  1.465761e+00    1.195159e+01
  1.491284e+00    1.127777e+01
  1.516807e+00    1.111228e+01
  1.542331e+00    1.140673e+01
  1.567854e+00    1.087788e+01
  1.593377e+00    1.101803e+01
  1.618901e+00    1.077739e+01
  1.644424e+00    1.027921e+01
  1.669947e+00    9.913054e+00
  1.695471e+00    1.005966e+01
  1.720994e+00    1.000971e+01
  1.746517e+00    9.827474e+00
  1.772041e+00    9.512687e+00
  1.797564e+00    9.200983e+00
  1.823087e+00    9.317687e+00
  1.848610e+00    9.047274e+00
  1.874134e+00    8.964292e+00
  1.899657e+00    8.741285e+00
  1.925180e+00    8.579457e+00
  1.950704e+00    8.234568e+00
  1.976227e+00    8.109859e+00
  2.001750e+00    8.058457e+00
  2.027274e+00    7.963597e+00
  2.052797e+00    7.721560e+00
  2.078320e+00    7.578280e+00
  2.103844e+00    7.454157e+00
  2.129367e+00    7.012545e+00
  2.154890e+00    7.177602e+00
  2.180413e+00    6.800865e+00
  2.205937e+00    6.840905e+00
  2.231460e+00    6.678408e+00
  2.256983e+00    6.390779e+00
  2.282507e+00    6.467010e+00
  2.308030e+00    6.194956e+00
  2.333553e+00    6.457661e+00
  2.359077e+00    6.067836e+00
  2.384600e+00    6.014760e+00
  2.410123e+00    6.022189e+00
  2.435647e+00    6.012409e+00
  2.461170e+00    6.062791e+00
  2.486693e+00    5.875602e+00
  2.512216e+00    5.918706e+00
  2.537740e+00    5.734303e+00
  2.563263e+00    5.625244e+00
  2.588786e+00    5.610312e+00
  2.614310e+00    5.435820e+00
  2.639833e+00    5.611585e+00
  2.665356e+00    5.454951e+00
  2.690880e+00    5.287642e+00
  2.716403e+00    5.307582e+00
  2.741926e+00    5.277707e+00
  2.767450e+00    5.323771e+00
  2.792973e+00    5.351996e+00
  2.818496e+00    5.220302e+00
  2.844019e+00    5.187859e+00
  2.869543e+00    5.045514e+00
  2.895066e+00    5.036690e+00
  2.920589e+00    5.108271e+00
  2.946113e+00    5.125541e+00
  2.971636e+00    5.116532e+00
  2.997159e+00    5.394487e+00
  3.022683e+00    5.697763e+00
  3.048206e+00    1.021082e+01
  3.073729e+00    1.204044e+01
  3.099253e+00    7.463548e+00
  3.124776e+00    5.337955e+00
  3.150299e+00    4.886367e+00
  3.175822e+00    4.771571e+00
  3.201346e+00    4.555545e+00
  3.226869e+00    4.784528e+00
  3.252392e+00    4.648495e+00
  3.277916e+00    4.487811e+00
  3.303439e+00    4.468782e+00
  3.328962e+00    4.228308e+00
  3.354486e+00    4.380038e+00
  3.380009e+00    4.414450e+00
  3.405532e+00    4.225890e+00
  3.431056e+00    4.342920e+00
  3.456579e+00    4.185664e+00
  3.482102e+00    4.226456e+00
  3.507625e+00    4.186874e+00
  3.533149e+00    4.141647e+00
  3.558672e+00    4.190501e+00
  3.584195e+00    3.993151e+00
  3.609719e+00    4.098041e+00
  3.635242e+00    4.135969e+00
  3.660765e+00    4.124567e+00
  3.686289e+00    3.946419e+00
  3.711812e+00    4.025722e+00
  3.737335e+00    3.949813e+00
  3.762859e+00    3.879861e+00
  3.788382e+00    3.869087e+00
  3.813905e+00    3.865917e+00
  3.839428e+00    3.990898e+00
  3.864952e+00    3.729491e+00
  3.890475e+00    3.796587e+00
  3.915998e+00    3.632107e+00
  3.941522e+00    3.695890e+00
  3.967045e+00    3.689132e+00
  3.992568e+00    3.688888e+00
  4.018092e+00    3.622636e+00
  4.043615e+00    3.542725e+00
  4.069138e+00    3.553451e+00
  4.094662e+00    3.608676e+00
  4.120185e+00    3.700227e+00
  4.145708e+00    3.713815e+00
  4.171231e+00    3.872161e+00
  4.196755e+00    3.582405e+00
  4.222278e+00    3.710765e+00
  4.247801e+00    3.618484e+00
  4.273325e+00    3.615656e+00
  4.298848e+00    3.728620e+00
  4.324371e+00    4.290457e+00
  4.349895e+00    4.314027e+00
  4.375418e+00    3.678386e+00
  4.400941e+00    3.436323e+00
  4.426465e+00    3.236542e+00
  4.451988e+00    3.336676e+00
  4.477511e+00    3.529698e+00
  4.503034e+00    3.375934e+00
  4.528558e+00    3.144681e+00
  4.554081e+00    3.292476e+00
  4.579604e+00    3.285084e+00
  4.605128e+00    3.286734e+00
  4.630651e+00    3.090194e+00
  4.656174e+00    3.203348e+00
  4.681698e+00    3.376739e+00
  4.707221e+00    3.338282e+00
  4.732744e+00    3.199337e+00
  4.758267e+00    3.142842e+00
  4.783791e+00    3.249079e+00
  4.809314e+00    3.146219e+00
  4.834837e+00    3.124309e+00
  4.860361e+00    3.077971e+00
  4.885884e+00    3.066140e+00
  4.911407e+00    3.108371e+00
  4.936931e+00    3.104412e+00
  4.962454e+00    3.010406e+00
  4.987977e+00    3.023694e+00
  5.013501e+00    2.956336e+00
  5.039024e+00    3.068623e+00
  5.064547e+00    3.076557e+00
  5.090070e+00    2.925102e+00
  5.115594e+00    3.021974e+00
  5.141117e+00    2.855751e+00
  5.166640e+00    3.071239e+00
  5.192164e+00    2.971208e+00
  5.217687e+00    2.944274e+00
  5.243210e+00    2.978081e+00
  5.268734e+00    2.942060e+00
  5.294257e+00    4.070002e+00
  5.319780e+00    4.593606e+00
  5.345304e+00    3.684947e+00
  5.370827e+00    3.191427e+00
  5.396350e+00    2.722037e+00
  5.421873e+00    2.769690e+00
  5.447397e+00    2.718894e+00
  5.472920e+00    2.703373e+00
  5.498443e+00    2.650197e+00
  5.523967e+00    2.670476e+00
  5.549490e+00    2.538471e+00
  5.575013e+00    2.659289e+00
  5.600537e+00    2.817764e+00
  5.626060e+00    2.541692e+00
  5.651583e+00    2.651161e+00
  5.677107e+00    2.527850e+00
  5.702630e+00    2.554163e+00
  5.728153e+00    2.682297e+00
  5.753676e+00    2.597156e+00
  5.779200e+00    2.703221e+00
  5.804723e+00    2.570484e+00
  5.830246e+00    2.524548e+00
  5.855770e+00    2.507420e+00
  5.881293e+00    2.456417e+00
  5.906816e+00    2.446221e+00
  5.932340e+00    2.366882e+00
  5.957863e+00    2.421506e+00
  5.983386e+00    2.605909e+00
  6.008910e+00    2.557434e+00
  6.034433e+00    2.482491e+00
  6.059956e+00    2.492275e+00
  6.085479e+00    2.384830e+00
  6.111003e+00    2.992307e+00
  6.136526e+00    3.027776e+00
  6.162049e+00    2.934794e+00
  6.187573e+00    2.402015e+00
  6.213096e+00    2.297848e+00
  6.238619e+00    2.287203e+00
  6.264143e+00    2.658879e+00
  6.289666e+00    2.685597e+00
  6.315189e+00    2.840363e+00
  6.340713e+00    2.309501e+00
  6.366236e+00    2.037036e+00
  6.378998e+00    4.996594e-01

File: S25m.dat
      q_A^-1             I
  1.093235e-02    1.039487e+06
  3.645566e-02    8.626468e+05
  6.197897e-02    3.537673e+05
  8.750227e-02    1.406591e+05
  1.130256e-01    4.864715e+04
  1.385489e-01    2.328185e+04
  1.640722e-01    1.571454e+04
  1.895955e-01    1.163411e+04
  2.151188e-01    8.722849e+03
  2.406421e-01    5.395396e+03
  2.661654e-01    3.247636e+03
  2.916887e-01    1.416322e+03
  3.172120e-01    8.568373e+02
  3.427353e-01    3.760553e+02
  3.682587e-01    2.124819e+02
  3.937820e-01    1.524105e+02
  4.193053e-01    1.306341e+02
  4.448286e-01    1.097134e+02
  4.703519e-01    1.001036e+02
  4.958752e-01    9.192010e+01
  5.213985e-01    8.248935e+01
  5.469218e-01    7.625661e+01
  5.724451e-01    7.210317e+01
  5.979684e-01    6.869106e+01
  6.234917e-01    6.325600e+01
  6.490150e-01    6.035358e+01
  6.745383e-01    5.721375e+01
  7.000616e-01    5.646203e+01
  7.255850e-01    5.526379e+01
  7.511083e-01    5.331180e+01
  7.766316e-01    5.252838e+01
  8.021549e-01    4.992582e+01
  8.276782e-01    4.903324e+01
  8.532015e-01    4.782880e+01
  8.787248e-01    4.611415e+01
  9.042481e-01    4.519987e+01
  9.297714e-01    4.288232e+01
  9.552947e-01    4.236345e+01
  9.808180e-01    4.094550e+01
  1.006341e+00    4.117535e+01
  1.031865e+00    4.027430e+01
  1.057388e+00    3.946814e+01
  1.082911e+00    3.897044e+01
  1.108435e+00    3.758461e+01
  1.133958e+00    3.765095e+01
  1.159481e+00    3.551538e+01
  1.185004e+00    3.594416e+01
  1.210528e+00    3.583366e+01
  1.236051e+00    3.382051e+01
  1.261574e+00    3.323452e+01
  1.287098e+00    3.320231e+01
  1.312621e+00    3.200516e+01
  1.338144e+00    3.107417e+01
  1.363668e+00    3.058173e+01
  1.389191e+00    3.079300e+01
  1.414714e+00    2.951118e+01
  1.440238e+00    3.002571e+01
  1.465761e+00    2.976929e+01
  1.491284e+00    2.848430e+01
  1.516807e+00    2.835610e+01
  1.542331e+00    2.823402e+01
  1.567854e+00    2.738437e+01
  1.593377e+00    2.583941e+01
  1.618901e+00    2.592639e+01
  1.644424e+00    2.567143e+01
  1.669947e+00    2.539738e+01
  1.695471e+00    2.461166e+01
  1.720994e+00    2.460750e+01
  1.746517e+00    2.436975e+01
  1.772041e+00    2.363505e+01
  1.797564e+00    2.331534e+01
  1.823087e+00    2.312156e+01
  1.848610e+00    2.244968e+01
  1.874134e+00    2.266022e+01
  1.899657e+00    2.178823e+01
  1.925180e+00    2.105911e+01
  1.950704e+00    2.077975e+01
  1.976227e+00    2.059097e+01
  2.001750e+00    2.011323e+01
  2.027274e+00    1.941638e+01
  2.052797e+00    1.910000e+01
  2.078320e+00    1.929135e+01
  2.103844e+00    1.820432e+01
  2.129367e+00    1.795289e+01
  2.154890e+00    1.759677e+01
  2.180413e+00    1.742698e+01
  2.205937e+00    1.663000e+01
  2.231460e+00    1.665569e+01
  2.256983e+00    1.633632e+01
  2.282507e+00    1.618161e+01
  2.308030e+00    1.619691e+01
  2.333553e+00    1.581912e+01
  2.359077e+00    1.554660e+01
  2.384600e+00    1.503841e+01
  2.410123e+00    1.538825e+01
  2.435647e+00    1.519510e+01
  2.461170e+00    1.516471e+01
  2.486693e+00    1.481318e+01
  2.512216e+00    1.449390e+01
  2.537740e+00    1.439561e+01
  2.563263e+00    1.411114e+01
  2.588786e+00    1.389154e+01
  2.614310e+00    1.421459e+01
  2.639833e+00    1.350659e+01
  2.665356e+00    1.360586e+01
  2.690880e+00    1.332110e+01
  2.716403e+00    1.333305e+01
  2.741926e+00    1.347476e+01
  2.767450e+00    1.310614e+01
  2.792973e+00    1.347998e+01
  2.818496e+00    1.298928e+01
  2.844019e+00    1.264987e+01
  2.869543e+00    1.272403e+01
  2.895066e+00    1.297103e+01
  2.920589e+00    1.286088e+01
  2.946113e+00    1.276358e+01
  2.971636e+00    1.303149e+01
  2.997159e+00    1.307920e+01
  3.022683e+00    1.470655e+01
  3.048206e+00    2.545820e+01
  3.073729e+00    3.012327e+01
  3.099253e+00    1.904608e+01
  3.124776e+00    1.297014e+01
  3.150299e+00    1.212838e+01
  3.175822e+00    1.189930e+01
  3.201346e+00    1.158660e+01
  3.226869e+00    1.156449e+01
  3.252392e+00    1.151374e+01
  3.277916e+00    1.124431e+01
  3.303439e+00    1.122602e+01
  3.328962e+00    1.093519e+01
  3.354486e+00    1.087155e+01
  3.380009e+00    1.163474e+01
  3.405532e+00    1.094032e+01
  3.431056e+00    1.086907e+01
  3.456579e+00    1.081986e+01
  3.482102e+00    1.064825e+01
  3.507625e+00    1.066419e+01
  3.533149e+00    1.045444e+01
  3.558672e+00    1.050556e+01
  3.584195e+00    9.905425e+00
  3.609719e+00    9.949288e+00
  3.635242e+00    1.017345e+01
  3.660765e+00    9.912291e+00
  3.686289e+00    9.969993e+00
  3.711812e+00    1.005130e+01
  3.737335e+00    9.819605e+00
  3.762859e+00    9.716213e+00
  3.788382e+00    9.886282e+00
  3.813905e+00    9.826212e+00
  3.839428e+00    9.722069e+00
  3.864952e+00    9.594783e+00
  3.890475e+00    9.605025e+00
  3.915998e+00    9.451052e+00
  3.941522e+00    9.385552e+00
  3.967045e+00    9.233549e+00
  3.992568e+00    9.298031e+00
  4.018092e+00    9.624932e+00
  4.043615e+00    9.290699e+00
  4.069138e+00    9.049372e+00
  4.094662e+00    9.280742e+00
  4.120185e+00    9.033175e+00
  4.145708e+00    9.208353e+00
  4.171231e+00    9.236289e+00
  4.196755e+00    9.062316e+00
  4.222278e+00    9.123285e+00
  4.247801e+00    8.932636e+00
  4.273325e+00    8.875051e+00
  4.298848e+00    9.366964e+00
  4.324371e+00    1.085073e+01
  4.349895e+00    1.096181e+01
  4.375418e+00    9.433408e+00
  4.400941e+00    8.675395e+00
  4.426465e+00    8.429887e+00
  4.451988e+00    8.554491e+00
  4.477511e+00    8.345137e+00
  4.503034e+00    8.450876e+00
  4.528558e+00    8.257800e+00
  4.554081e+00    8.320170e+00
  4.579604e+00    8.317157e+00
  4.605128e+00    8.192499e+00
  4.630651e+00    8.132209e+00
  4.656174e+00    7.943493e+00
  4.681698e+00    8.050670e+00
  4.707221e+00    7.874825e+00
  4.732744e+00    7.993893e+00
  4.758267e+00    7.990953e+00
  4.783791e+00    7.962402e+00
  4.809314e+00    7.973112e+00
  4.834837e+00    7.918195e+00
  4.860361e+00    7.757269e+00
  4.885884e+00    8.055376e+00
  4.911407e+00    7.531317e+00
  4.936931e+00    7.730685e+00
  4.962454e+00    7.768039e+00
  4.987977e+00    7.428147e+00
  5.013501e+00    7.514605e+00
  5.039024e+00    7.316439e+00
  5.064547e+00    7.772614e+00
  5.090070e+00    7.349578e+00
  5.115594e+00    7.592627e+00
  5.141117e+00    7.296522e+00
  5.166640e+00    7.444715e+00
  5.192164e+00    7.288198e+00
  5.217687e+00    7.322869e+00
  5.243210e+00    7.537057e+00
  5.268734e+00    7.603583e+00
  5.294257e+00    1.022313e+01
  5.319780e+00    1.196884e+01
  5.345304e+00    8.939098e+00
  5.370827e+00    7.403925e+00
  5.396350e+00    6.946321e+00
  5.421873e+00    6.769282e+00
  5.447397e+00    6.825265e+00
  5.472920e+00    6.691954e+00
  5.498443e+00    6.501500e+00
  5.523967e+00    6.856823e+00
  5.549490e+00    6.678571e+00
  5.575013e+00    6.648371e+00
  5.600537e+00    6.595305e+00
  5.626060e+00    6.400808e+00
  5.651583e+00    6.374484e+00
  5.677107e+00    6.515392e+00
  5.702630e+00    6.531163e+00
  5.728153e+00    6.515499e+00
  5.753676e+00    6.320370e+00
  5.779200e+00    6.451957e+00
  5.804723e+00    6.244357e+00
  5.830246e+00    6.172180e+00
  5.855770e+00    6.160261e+00
  5.881293e+00    5.967562e+00
  5.906816e+00    6.269983e+00
  5.932340e+00    6.255125e+00
  5.957863e+00    6.485704e+00
  5.983386e+00    6.001701e+00
  6.008910e+00    5.969747e+00
  6.034433e+00    5.990087e+00
  6.059956e+00    6.185948e+00
  6.085479e+00    6.401283e+00
  6.111003e+00    6.412550e+00
  6.136526e+00    6.950964e+00
  6.162049e+00    6.683977e+00
  6.187573e+00    6.328397e+00
  6.213096e+00    6.064252e+00
  6.238619e+00    5.445454e+00
  6.264143e+00    6.106767e+00
  6.289666e+00    6.291986e+00
  6.315189e+00    6.568247e+00
  6.340713e+00    6.982209e+00
  6.366236e+00    6.113348e+00
  6.378998e+00    5.253155e+00

File: sp1.dat
     q_A^-1             I
  1.093235e-02    1.044879e+06
  3.645566e-02    6.109189e+05
  6.197897e-02    1.337173e+05
  8.750227e-02    2.687212e+04
  1.130256e-01    9.595006e+03
  1.385489e-01    4.700472e+03
  1.640722e-01    3.183326e+03
  1.895955e-01    2.351616e+03
  2.151188e-01    1.265882e+03
  2.406421e-01    4.776793e+02
  2.661654e-01    3.607076e+02
  2.916887e-01    1.543901e+02
  3.172120e-01    7.442480e+01
  3.427353e-01    3.657726e+01
  3.682587e-01    3.076899e+01
  3.937820e-01    2.657262e+01
  4.193053e-01    2.402449e+01
  4.448286e-01    2.000677e+01
  4.703519e-01    1.767103e+01
  4.958752e-01    1.636916e+01
  5.213985e-01    1.468315e+01
  5.469218e-01    1.427129e+01
  5.724451e-01    1.343545e+01
  5.979684e-01    1.261868e+01
  6.234917e-01    1.198561e+01
  6.490150e-01    1.103254e+01
  6.745383e-01    1.131454e+01
  7.000616e-01    1.030814e+01
  7.255850e-01    1.029956e+01
  7.511083e-01    9.070158e+00
  7.766316e-01    9.692951e+00
  8.021549e-01    8.847351e+00
  8.276782e-01    9.032982e+00
  8.532015e-01    8.802727e+00
  8.787248e-01    8.455224e+00
  9.042481e-01    8.391676e+00
  9.297714e-01    8.404436e+00
  9.552947e-01    7.713487e+00
  9.808180e-01    7.799902e+00
  1.006341e+00    7.288881e+00
  1.031865e+00    7.482743e+00
  1.057388e+00    7.561807e+00
  1.082911e+00    7.115945e+00
  1.108435e+00    7.064820e+00
  1.133958e+00    6.746249e+00
  1.159481e+00    6.536939e+00
  1.185004e+00    6.505283e+00
  1.210528e+00    6.610795e+00
  1.236051e+00    6.418792e+00
  1.261574e+00    6.223250e+00
  1.287098e+00    6.203279e+00
  1.312621e+00    6.252060e+00
  1.338144e+00    6.051503e+00
  1.363668e+00    5.749464e+00
  1.389191e+00    5.451881e+00
  1.414714e+00    5.587795e+00
  1.440238e+00    5.469562e+00
  1.465761e+00    5.481733e+00
  1.491284e+00    5.377319e+00
  1.516807e+00    5.270293e+00
  1.542331e+00    5.393756e+00
  1.567854e+00    5.076544e+00
  1.593377e+00    5.165918e+00
  1.618901e+00    4.942521e+00
  1.644424e+00    5.025131e+00
  1.669947e+00    4.537980e+00
  1.695471e+00    4.485679e+00
  1.720994e+00    4.608601e+00
  1.746517e+00    4.440911e+00
  1.772041e+00    4.530761e+00
  1.797564e+00    4.410954e+00
  1.823087e+00    4.469519e+00
  1.848610e+00    4.335063e+00
  1.874134e+00    4.187585e+00
  1.899657e+00    4.051587e+00
  1.925180e+00    4.109580e+00
  1.950704e+00    4.074761e+00
  1.976227e+00    3.968700e+00
  2.001750e+00    3.940799e+00
  2.027274e+00    3.663429e+00
  2.052797e+00    3.699140e+00
  2.078320e+00    3.641519e+00
  2.103844e+00    3.793093e+00
  2.129367e+00    3.519246e+00
  2.154890e+00    3.389039e+00
  2.180413e+00    3.242753e+00
  2.205937e+00    3.315005e+00
  2.231460e+00    3.490298e+00
  2.256983e+00    3.206896e+00
  2.282507e+00    3.134400e+00
  2.308030e+00    3.218859e+00
  2.333553e+00    2.981153e+00
  2.359077e+00    3.088213e+00
  2.384600e+00    3.128240e+00
  2.410123e+00    3.031057e+00
  2.435647e+00    3.071741e+00
  2.461170e+00    3.158811e+00
  2.486693e+00    3.165359e+00
  2.512216e+00    3.297480e+00
  2.537740e+00    3.479779e+00
  2.563263e+00    3.924721e+00
  2.588786e+00    5.553015e+00
  2.614310e+00    1.128404e+01
  2.639833e+00    1.501052e+01
  2.665356e+00    9.909124e+00
  2.690880e+00    4.982718e+00
  2.716403e+00    3.413379e+00
  2.741926e+00    3.299381e+00
  2.767450e+00    3.313458e+00
  2.792973e+00    3.153561e+00
  2.818496e+00    2.966379e+00
  2.844019e+00    2.983593e+00
  2.869543e+00    2.962311e+00
  2.895066e+00    2.986558e+00
  2.920589e+00    3.007923e+00
  2.946113e+00    3.203808e+00
  2.971636e+00    3.313827e+00
  2.997159e+00    4.327337e+00
  3.022683e+00    6.488290e+00
  3.048206e+00    7.106612e+00
  3.073729e+00    5.192272e+00
  3.099253e+00    3.350378e+00
  3.124776e+00    2.700104e+00
  3.150299e+00    2.651435e+00
  3.175822e+00    2.456822e+00
  3.201346e+00    2.575196e+00
  3.226869e+00    2.571313e+00
  3.252392e+00    2.390091e+00
  3.277916e+00    2.244712e+00
  3.303439e+00    2.143274e+00
  3.328962e+00    2.216888e+00
  3.354486e+00    2.220900e+00
  3.380009e+00    2.211265e+00
  3.405532e+00    2.130448e+00
  3.431056e+00    2.205070e+00
  3.456579e+00    2.114877e+00
  3.482102e+00    2.249864e+00
  3.507625e+00    2.120296e+00
  3.533149e+00    2.013312e+00
  3.558672e+00    2.147872e+00
  3.584195e+00    2.133058e+00
  3.609719e+00    1.987209e+00
  3.635242e+00    2.069784e+00
  3.660765e+00    2.066763e+00
  3.686289e+00    2.067566e+00
  3.711812e+00    2.035465e+00
  3.737335e+00    1.969817e+00
  3.762859e+00    2.012216e+00
  3.788382e+00    1.900552e+00
  3.813905e+00    1.892135e+00
  3.839428e+00    1.979879e+00
  3.864952e+00    1.981471e+00
  3.890475e+00    1.931860e+00
  3.915998e+00    1.913833e+00
  3.941522e+00    1.869810e+00
  3.967045e+00    1.923089e+00
  3.992568e+00    1.968853e+00
  4.018092e+00    2.042698e+00
  4.043615e+00    1.908860e+00
  4.069138e+00    1.946810e+00
  4.094662e+00    1.964354e+00
  4.120185e+00    1.972833e+00
  4.145708e+00    1.929764e+00
  4.171231e+00    1.891629e+00
  4.196755e+00    2.010098e+00
  4.222278e+00    2.086007e+00
  4.247801e+00    2.481096e+00
  4.273325e+00    3.755020e+00
  4.298848e+00    4.812572e+00
  4.324371e+00    4.125501e+00
  4.349895e+00    2.614412e+00
  4.375418e+00    2.175171e+00
  4.400941e+00    1.873307e+00
  4.426465e+00    1.827926e+00
  4.451988e+00    1.767092e+00
  4.477511e+00    1.790483e+00
  4.503034e+00    1.697708e+00
  4.528558e+00    1.724684e+00
  4.554081e+00    1.772668e+00
  4.579604e+00    1.681276e+00
  4.605128e+00    1.771072e+00
  4.630651e+00    1.713817e+00
  4.656174e+00    1.676919e+00
  4.681698e+00    1.592347e+00
  4.707221e+00    1.681417e+00
  4.732744e+00    1.622644e+00
  4.758267e+00    1.734132e+00
  4.783791e+00    1.654833e+00
  4.809314e+00    1.727674e+00
  4.834837e+00    1.718730e+00
  4.860361e+00    1.736454e+00
  4.885884e+00    1.827442e+00
  4.911407e+00    1.625988e+00
  4.936931e+00    1.793213e+00
  4.962454e+00    1.821178e+00
  4.987977e+00    2.092711e+00
  5.013501e+00    3.628785e+00
  5.039024e+00    4.639657e+00
  5.064547e+00    4.371822e+00
  5.090070e+00    3.045903e+00
  5.115594e+00    1.960996e+00
  5.141117e+00    1.789155e+00
  5.166640e+00    1.677757e+00
  5.192164e+00    1.613234e+00
  5.217687e+00    1.768240e+00
  5.243210e+00    2.111723e+00
  5.268734e+00    2.406082e+00
  5.294257e+00    2.223828e+00
  5.319780e+00    1.680713e+00
  5.345304e+00    1.516170e+00
  5.370827e+00    1.573734e+00
  5.396350e+00    1.385997e+00
  5.421873e+00    1.401289e+00
  5.447397e+00    1.406640e+00
  5.472920e+00    1.390782e+00
  5.498443e+00    1.350573e+00
  5.523967e+00    1.413111e+00
  5.549490e+00    1.365259e+00
  5.575013e+00    1.332273e+00
  5.600537e+00    1.387730e+00
  5.626060e+00    1.350171e+00
  5.651583e+00    1.350124e+00
  5.677107e+00    1.434394e+00
  5.702630e+00    1.258619e+00
  5.728153e+00    1.410222e+00
  5.753676e+00    1.285930e+00
  5.779200e+00    1.413582e+00
  5.804723e+00    1.375300e+00
  5.830246e+00    1.319916e+00
  5.855770e+00    1.358016e+00
  5.881293e+00    1.287950e+00
  5.906816e+00    1.367335e+00
  5.932340e+00    1.269100e+00
  5.957863e+00    1.412304e+00
  5.983386e+00    2.393958e+00
  6.008910e+00    1.304835e+00
  6.034433e+00    1.258772e+00
  6.059956e+00    1.644058e+00
  6.085479e+00    1.606811e+00
  6.111003e+00    1.446937e+00
  6.136526e+00    1.498581e+00
  6.162049e+00    1.171719e+00
  6.187573e+00    1.156441e+00
  6.213096e+00    1.454232e+00
  6.238619e+00    1.126779e+00
  6.264143e+00    1.079871e+00
  6.289666e+00    1.380844e+00
  6.315189e+00    9.587758e-01
  6.340713e+00    6.442313e-01
  6.366236e+00    2.151596e+00
  6.378998e+00    1.500596e+00